Folder: Isla_Hermite/Data/ITRAX/HER42PB/Output/itraxR

File: HER42PB_xrf_filter.csv
"depth","label","MSE","cps","kcps","Cl","K","Ca","Ti","Mn","Fe","Co","Ni","Br","Rb","Sr","Zr","Mo_inc","Mo_coh"
11,"A",1.31,49880,18181,122,82,335,179,152,8205,100,207,3291,165,685,595,29836,5132
51,"A",1.42,52255,17952,138,133,629,193,186,11504,202,157,3494,131,980,803,27188,5261
91,"A",1.38,68753,20712,176,107,647,226,218,27070,58,155,3720,184,797,660,28721,5130
131,"A",1.35,61558,20070,154,103,541,218,134,18250,261,128,3021,100,1001,794,30020,5663
171,"A",1.47,45525,18144,143,47,305,95,57,3866,80,102,2324,100,841,907,30059,5341
211,"A",1.34,45001,16875,126,48,310,110,88,6678,194,150,1995,194,1071,609,26953,5091
251,"A",1.33,45804,17701,115,50,413,136,122,6165,41,177,1745,103,955,506,29062,5136
291,"A",1.22,48129,16927,148,96,409,190,136,11035,108,155,1745,92,994,581,26160,5249
331,"A",1.3,50627,15363,79,155,569,319,183,17740,172,201,1639,119,1060,542,22153,4627
371,"A",1.28,46783,15735,101,126,1040,203,131,12732,53,186,1709,261,1260,946,22349,4698
410,"B",1.39,63736,19971,171,72,428,202,123,22054,125,159,2416,17,741,745,30089,5359
430,"B",1.29,56716,19176,128,54,477,229,147,14764,156,175,2481,113,839,817,29543,5554
450,"B",1.3,53377,18506,132,88,441,294,160,12506,136,127,2434,82,832,709,29209,5288
470,"B",1.37,49808,19023,157,109,492,113,170,6141,18,190,2198,121,843,732,31965,5533
495,"B",1.21,47318,18820,126,78,285,106,87,3354,116,239,2368,51,688,701,32507,5522
535,"B",1.22,47716,17979,156,29,295,84,76,5739,198,204,2635,156,779,744,30091,5439
575,"B",1.42,47942,18170,138,49,380,134,108,5864,97,138,2423,99,885,651,30280,5539
615,"B",1.24,48417,18838,167,49,269,101,72,5649,135,113,2293,171,628,908,31521,5539
655,"B",1.29,47324,17428,164,76,359,128,123,7811,136,241,1985,94,844,564,28256,5377
695,"B",1.36,46440,17928,134,54,293,140,103,6638,79,173,1873,161,624,623,29512,5064
735,"B",1.53,47192,17921,157,59,335,134,132,5747,110,180,2194,64,919,672,30092,5430
775,"B",1.3,46094,16988,143,47,369,212,111,8572,58,209,1888,92,1061,530,26708,5113
812,"C",1.31,51460,17770,181,109,694,286,186,12829,173,158,2140,67,1214,694,26626,4974
832,"C",1.27,53194,17988,163,159,881,273,191,14421,282,142,2144,208,1164,460,26459,5288
852,"C",1.25,48502,16096,158,157,844,299,209,13633,130,174,1839,279,1402,559,22871,4628
872,"C",1.34,51946,16962,170,147,796,343,206,15358,177,137,1929,162,1061,587,24758,4899
905,"C",1.34,53442,19821,214,113,512,192,156,8984,134,204,2643,169,959,814,31458,5864
945,"C",1.32,51800,19451,149,64,351,150,107,8313,156,269,2096,81,477,604,32476,5630
985,"C",1.35,46160,17276,129,77,483,211,142,6842,0,165,2103,0,868,690,28550,4822
1025,"C",1.34,51070,19928,214,52,279,79,69,5470,0,189,2757,12,649,790,33762,5421
1065,"C",1.43,54935,19354,162,117,493,335,196,10624,139,216,2388,41,844,769,31989,5514
1105,"C",1.43,53622,17183,123,210,892,408,237,14647,48,157,2148,310,1562,515,25824,5160
1145,"C",1.27,51635,18483,124,101,484,216,99,9801,163,151,2750,207,763,707,29353,5556
1185,"C",1.43,54813,20246,188,52,308,113,49,9409,148,189,3426,0,418,832,33114,5578
1217,"D",1.18,46830,18851,136,43,235,77,46,3304,82,164,2213,13,511,746,32637,5524
1237,"D",1.23,51983,21366,116,24,259,60,8,1491,76,203,2566,90,378,763,38626,6066
1257,"D",1.27,54177,20971,145,87,425,163,138,5442,31,164,3234,106,560,866,35555,5892
1277,"D",1.32,54336,21620,118,36,236,52,32,4439,98,166,2134,0,228,900,38501,6288
1315,"D",1.2,49747,20215,126,30,351,49,62,2366,10,146,2446,111,509,980,35877,5772
1355,"D",1.4,52885,21868,159,28,335,65,60,2080,110,248,2314,15,377,743,38950,6433
1395,"D",1.36,53951,21852,134,28,184,32,23,2697,93,183,2537,0,474,844,39312,6176
1435,"D",1.25,50877,20720,143,16,253,22,45,2122,40,214,2741,0,261,800,37628,5671
1475,"D",1.23,52097,21262,138,8,195,35,0,787,0,218,2865,0,282,839,39557,6269
1515,"D",1.38,51276,20563,129,25,216,70,57,2081,73,185,2593,0,543,671,37528,6075
1555,"D",1.14,45528,18342,170,36,264,30,73,3140,75,261,2078,113,753,530,31434,5564
1595,"D",1.35,48399,18816,137,65,387,142,71,4883,102,156,1809,34,850,673,32301,5800
1622,"E",1.38,51290,20709,127,60,347,121,35,3558,80,157,3003,55,393,811,35971,5686
1642,"E",1.47,52088,20310,116,43,345,129,56,4591,24,220,2697,138,518,782,35327,5883
1662,"E",1.27,51725,19975,152,26,279,55,38,5491,216,194,2388,78,476,724,34967,5678
1685,"E",1.22,51922,20564,154,29,241,83,18,4290,228,223,2244,56,343,748,36274,6011
1725,"E",1.29,52001,21091,152,43,216,63,13,2226,126,222,2723,0,364,822,37785,6096
1765,"E",1.3,51653,20582,126,34,261,59,56,2598,108,176,2785,116,524,847,36834,5817
1805,"E",1.25,49464,19826,131,26,177,30,24,1817,79,154,3020,118,410,753,36031,5804
1845,"E",1.25,50520,20448,159,20,217,35,7,2209,121,201,2180,0,544,758,37145,5879
1885,"E",1.24,50735,20738,137,0,189,41,7,1542,56,165,2368,144,395,891,37845,5884
1925,"E",1.11,49123,20077,116,35,269,44,45,2181,52,195,2041,6,445,712,36261,5878
1965,"E",1.34,49625,19884,112,41,317,48,19,2161,13,167,2594,0,512,724,36032,5431
2005,"E",1.25,49625,18630,146,108,464,155,101,7355,57,116,2350,187,901,689,30406,5741
2027,"F",1.24,53505,20522,141,70,283,114,61,5375,142,173,3264,0,490,693,35955,5802
2047,"F",1.26,53578,20382,151,41,403,84,98,5333,18,209,3330,28,575,949,35456,6036
2067,"F",1.36,49235,19347,141,28,242,57,60,3429,88,177,2715,0,690,596,33670,5746
2095,"F",1.45,51786,20187,116,46,292,80,83,3096,12,215,3031,219,755,715,35978,5790
2135,"F",1.18,52614,20873,178,47,307,59,69,2551,129,208,3169,0,553,820,37586,5747
2175,"F",1.45,52172,19411,160,60,374,135,111,6246,21,194,2764,175,828,647,33692,5748
2215,"F",1.45,53483,20572,168,22,343,124,65,3622,120,234,3061,84,521,744,37116,6067
2255,"F",1.21,46606,18726,106,32,250,70,49,1948,30,170,2267,95,653,801,33342,5615
2295,"F",1.37,51890,20159,158,43,259,93,68,3523,0,219,3907,114,639,965,35041,5688
2335,"F",1.35,53496,20922,128,35,279,86,57,4312,78,208,3246,108,583,706,36706,6005
2375,"F",1.31,45950,17882,145,40,328,78,68,4628,53,188,2055,18,1016,698,30244,5493
2412,"G",1.37,47024,18490,106,84,391,113,77,5002,101,192,2364,6,574,595,31416,5028
2432,"G",1.48,49062,18123,156,37,349,99,67,7183,62,221,1913,189,734,712,30620,5309
2452,"G",1.22,51033,20490,124,19,251,37,0,3247,125,158,1983,163,408,774,36724,5980
2475,"G",1.26,50139,20761,84,9,160,5,6,1553,0,183,1914,0,194,913,38245,5862
2515,"G",1.34,54114,21520,120,25,247,0,6,1796,142,221,2870,99,556,971,39592,6439
2555,"G",1.2,49952,19909,132,17,247,43,26,2406,104,187,2053,28,508,1071,36353,5779
2595,"G",1.63,52185,21722,107,29,232,60,11,1169,76,227,2681,0,264,815,39309,6331
2635,"G",1.41,53445,21676,110,0,234,60,32,1089,135,179,2732,0,296,1002,39973,6518
2675,"G",1.18,51007,20485,119,29,215,30,38,985,80,215,3204,47,457,765,37541,6083
2715,"G",1.48,53980,22157,178,11,262,30,57,1631,111,247,2920,60,370,832,39756,6243
2755,"G",1.34,51279,20382,82,39,328,66,46,1722,103,178,2704,0,491,923,37421,5924
2795,"G",1.36,53637,22072,156,43,304,51,61,1790,157,151,2683,80,200,900,39563,6242
2822,"H",1.5,53005,22187,139,12,270,69,35,3503,100,188,2582,0,202,731,38344,5773
2842,"H",1.37,52666,21323,165,34,326,52,64,3378,107,242,2713,63,770,1016,36857,5920
2862,"H",1.22,52107,20157,124,51,382,85,101,5126,100,179,2764,202,642,805,34466,5873
2885,"H",1.35,53379,21562,165,21,252,19,49,2954,142,159,2730,94,514,929,38253,6154
2925,"H",1.39,53915,21904,121,39,324,38,49,1055,56,158,2638,131,353,892,40520,6406
2965,"H",1.41,52164,21088,149,32,304,56,53,2206,53,253,2809,24,429,675,37951,6048
3005,"H",1.42,52498,20329,146,48,383,103,56,4211,84,188,3110,6,719,855,35519,6256
3045,"H",1.36,53403,21372,123,14,305,52,40,2755,132,130,2522,56,449,799,38726,6336
3085,"H",1.31,52534,21576,127,6,313,5,46,1774,53,194,2599,0,477,1043,38841,6161
3125,"H",1.27,53316,20909,143,59,448,137,91,6473,13,183,2193,21,711,693,35464,5643
3165,"H",1.28,53520,20371,141,56,368,74,86,6281,165,206,2360,42,602,762,35277,5948
3205,"H",1.5,56928,21098,151,30,275,37,109,6106,267,201,3377,68,634,774,37432,6150
3227,"I",1.39,53162,21209,127,20,317,54,56,3626,72,247,2753,0,608,798,37424,5968
3247,"I",1.39,54225,20614,121,61,437,133,96,7009,139,166,2834,0,446,733,35222,5879
3267,"I",1.3,52487,20812,115,19,374,48,59,2464,75,172,2813,86,656,862,37733,5913
3300,"I",1.23,53720,21968,113,0,310,75,71,1531,73,229,2718,15,401,767,39910,6375
3340,"I",1.38,55319,22057,133,12,243,35,38,3391,38,169,3061,9,328,746,39743,6151
3380,"I",1.25,55147,22084,158,18,255,25,47,2892,44,213,3126,14,336,968,39771,6321
3420,"I",1.34,56274,23035,120,28,288,52,12,902,27,259,3251,31,497,889,42057,6627
3460,"I",1.27,55262,22802,112,13,332,40,35,1229,34,183,2846,49,627,804,41381,6275
3500,"I",1.22,55446,22597,136,24,374,41,44,1969,143,171,2830,128,423,726,40816,6468
3540,"I",1.4,49978,19782,134,60,482,101,76,5293,199,219,2575,0,777,828,32524,5729
3570,"I",1.25,52729,20527,114,61,500,148,117,5239,99,190,2373,110,756,691,35146,5954
3590,"I",1.22,50114,18742,123,77,632,165,87,6026,86,191,2163,137,693,701,32203,5536
3610,"I",1.17,52547,20330,139,61,490,159,80,5355,136,182,2641,71,821,1130,33897,6039
3630,"I",1.42,49382,17380,103,84,606,278,170,10203,208,174,2006,147,1056,507,27635,5156
3650,"I",1.22,51978,17687,112,120,632,208,91,12383,128,169,1745,169,988,656,27991,5407
3670,"I",1.23,58453,18550,141,195,947,357,314,18299,167,200,1938,153,1114,752,27283,5294
3705,"J",1.26,51260,18817,127,69,425,134,140,8007,139,234,1952,145,915,666,31501,5601
3745,"J",1.28,42370,15445,128,87,528,273,169,9140,206,137,1126,201,1413,825,22012,4920
3785,"J",1.2,52488,20073,111,17,290,38,47,5796,143,220,2667,26,356,623,35525,5466
3825,"J",1.34,51186,19648,94,61,320,56,36,5426,106,166,3010,0,407,695,34225,5460
3865,"J",1.4,49459,19479,89,42,297,83,35,3169,97,217,1957,166,649,913,35111,5612
3905,"J",1.34,47375,17544,79,82,414,114,78,6215,69,158,1919,176,703,747,30267,5260
3945,"J",1.42,50732,18824,115,47,316,87,84,7370,127,100,2514,79,685,776,32087,5280
3985,"J",1.25,53316,19884,104,28,314,100,44,8091,159,208,2319,153,596,605,33959,5373
4025,"J",1.26,58726,20452,116,96,821,325,223,12561,101,135,1904,0,689,778,33895,5693
4029,"J",1.37,57460,21026,118,62,482,163,63,8382,110,191,2701,220,929,915,36316,5627