Folder: Isla_Hermite/Data/ITRAX/HER42L/Output/itraxR

File: HER42PB_xrf_cps.csv
"depth","MSE","cps","kcps","validity","Mg","Al","Si","P","S","Cl","Ar","K","Ca","Ti","V","Cr","Mn","Fe","Co","Ni","Cu","Zn","As","Se","Br","Rb","Sr","Y","Zr","Sn","I","Cs","Ba","Ta","W","Ir","Pt","Au","Hg","Pb","Th","U","Mo inc","Mo coh","filename","position","sample surface","E-gain","E-offset","F-slope","F-offset","Fe a*2","S1","S2","S3","label"
11,1.31,49916,18181,TRUE,0,10,10,0,24,122,104,82,335,179,0,5,152,8205,100,207,107,0,0,0,3291,165,685,0,595,0,0,0,0,165,171,0,10,58,0,46,84,0,29836,5132,"C:\Data\BAS_sjro\Oct_2017\Hermite\HER42-PB\H42-PB1A_XRF\XRF data\L000000.spe",11,6.64,0.018361,-0.022175,0.007024,0.110437,36,0,5,2.89042e+15,"A"
151,1.29,51597,18216,TRUE,21,47,27,16,14,153,127,110,420,139,10,25,142,9924,219,238,207,0,0,18,2580,208,940,15,793,0,0,0,8,182,217,0,0,55,0,52,142,73,29064,5411,"C:\Data\BAS_sjro\Oct_2017\Hermite\HER42-PB\H42-PB1A_XRF\XRF data\L000140.spe",151,7.01,0.018344,-0.022175,0.007659,0.110437,0,8,11,0,"A"
291,1.22,48178,16927,TRUE,36,27,29,19,21,148,92,96,409,190,18,0,136,11035,108,155,169,0,30,52,1745,92,994,0,581,0,0,0,0,137,306,0,0,13,0,17,65,0,26160,5249,"C:\Data\BAS_sjro\Oct_2017\Hermite\HER42-PB\H42-PB1A_XRF\XRF data\L000280.spe",291,6.83,0.018356,-0.022175,0.007517,0.110437,49,98,19,0,"A"
420,1.36,66980,20974,TRUE,14,44,4,11,53,181,88,114,540,281,36,16,152,24139,139,192,60,29,0,63,2709,106,679,0,575,0,0,0,0,182,193,0,33,107,0,124,52,121,30521,5393,"C:\Data\BAS_sjro\Oct_2017\Hermite\HER42-PB\H42-PB1B_XRF\XRF data\L000010.spe",521,6.61,0.018357,-0.022175,0.007254,0.110437,29,154,5,1.21235e+15,"B"
495,1.21,47318,18820,TRUE,0,0,0,0,12,126,121,78,285,106,30,7,87,3354,116,239,145,0,0,84,2368,51,688,0,701,0,0,0,0,266,250,0,0,0,0,155,20,0,32507,5522,"C:\Data\BAS_sjro\Oct_2017\Hermite\HER42-PB\H42-PB1B_XRF\XRF data\L000085.spe",596,6.93,0.018358,-0.022175,0.007306,0.110437,0,0,0,8.86839e+14,"B"
635,1.37,50951,19430,TRUE,0,8,26,14,39,148,107,48,291,120,4,0,68,6519,126,192,110,0,0,36,2319,226,833,0,521,0,7,0,0,257,265,0,54,0,0,84,111,0,32867,5551,"C:\Data\BAS_sjro\Oct_2017\Hermite\HER42-PB\H42-PB1B_XRF\XRF data\L000225.spe",736,6.97,0.018345,-0.022175,0.00739,0.110437,0,26,17,4.58117e+14,"B"
775,1.3,46255,16988,TRUE,0,34,10,11,42,143,149,47,369,212,0,16,111,8572,58,209,144,29,0,0,1888,92,1061,0,530,0,0,0,0,206,228,0,15,19,0,0,0,78,26708,5113,"C:\Data\BAS_sjro\Oct_2017\Hermite\HER42-PB\H42-PB1B_XRF\XRF data\L000365.spe",876,7.04,0.01835,-0.022175,0.007329,0.110437,161,87,7,1.75424e+15,"B"
862,1.17,53215,15670,TRUE,0,0,17,8,33,135,113,183,882,789,58,35,358,21230,89,175,205,41,0,57,1315,88,1470,0,611,0,12,0,0,153,193,0,0,0,5,66,38,67,20172,4586,"C:\Data\BAS_sjro\Oct_2017\Hermite\HER42-PB\H42-PB1C_XRF\XRF data\L000052.spe",1063,6.99,0.018358,-0.022175,0.007294,0.110437,31,140,4,0,"C"
985,1.35,46170,17276,TRUE,55,63,33,31,39,129,128,77,483,211,7,0,142,6842,0,165,112,0,0,50,2103,0,868,13,690,0,0,0,11,202,218,0,0,0,0,56,60,0,28550,4822,"C:\Data\BAS_sjro\Oct_2017\Hermite\HER42-PB\H42-PB1C_XRF\XRF data\L000175.spe",1186,6.89,0.018362,-0.022175,0.007404,0.110437,10,94,5,7.96257e+14,"C"
1125,1.29,48862,16647,TRUE,35,27,12,9,30,151,91,98,588,230,0,47,143,12904,184,179,100,0,0,152,1897,15,1307,0,566,0,0,0,0,214,257,12,0,0,0,0,116,0,24529,4969,"C:\Data\BAS_sjro\Oct_2017\Hermite\HER42-PB\H42-PB1C_XRF\XRF data\L000315.spe",1326,6.89,0.018351,-0.022175,0.007375,0.110437,0,34,28,0,"C"
1237,1.23,51983,21366,TRUE,0,46,10,5,42,116,100,24,259,60,8,0,8,1491,76,203,156,0,0,24,2566,90,378,0,763,0,0,0,0,203,225,0,93,28,0,33,244,40,38626,6066,"C:\Data\BAS_sjro\Oct_2017\Hermite\HER42-PB\H42-PB1D_XRF\XRF data\L000027.spe",38,6.65,0.018358,-0.022175,0.007396,0.110437,0,0,11,0,"D"
1335,1.18,52555,19618,TRUE,0,7,0,0,29,145,124,104,777,143,18,42,75,5210,154,184,74,0,0,71,2151,0,1054,0,835,0,8,0,6,193,214,0,96,36,0,0,154,170,34389,5926,"C:\Data\BAS_sjro\Oct_2017\Hermite\HER42-PB\H42-PB1D_XRF\XRF data\L000125.spe",136,6.73,0.018354,-0.022175,0.007497,0.110437,166,0,4,0,"D"
1475,1.23,52144,21262,TRUE,0,0,0,17,19,138,105,8,195,35,0,13,0,787,0,218,69,0,0,64,2865,0,282,0,839,0,0,0,0,188,234,0,32,0,0,106,17,40,39557,6269,"C:\Data\BAS_sjro\Oct_2017\Hermite\HER42-PB\H42-PB1D_XRF\XRF data\L000265.spe",276,6.75,0.01835,-0.022175,0.007363,0.110437,47,16,12,4.22157e+14,"D"
1612,1.27,51705,20773,TRUE,43,25,25,32,57,141,107,47,381,110,0,47,93,2988,64,170,138,0,8,123,2735,29,469,0,531,0,0,0,0,223,334,0,72,0,0,7,116,0,36596,5943,"C:\Data\BAS_sjro\Oct_2017\Hermite\HER42-PB\H42-PB1E_XRF\XRF data\L000002.spe",503,6.67,0.018352,-0.022175,0.007252,0.110437,51,7,15,5.17767e+14,"E"
1685,1.22,51960,20564,TRUE,0,24,14,0,25,154,92,29,241,83,0,12,18,4290,228,223,107,47,0,0,2244,56,343,0,748,0,0,0,0,267,261,0,49,30,0,0,52,0,36274,6011,"C:\Data\BAS_sjro\Oct_2017\Hermite\HER42-PB\H42-PB1E_XRF\XRF data\L000075.spe",576,6.83,0.018346,-0.022175,0.007501,0.110437,38,0,6,0,"E"
1825,1.24,53254,20397,TRUE,0,31,19,0,39,129,111,44,245,78,7,19,60,4720,144,214,165,0,0,77,2801,31,616,0,804,0,0,0,0,230,351,0,0,0,0,90,48,132,35986,5937,"C:\Data\BAS_sjro\Oct_2017\Hermite\HER42-PB\H42-PB1E_XRF\XRF data\L000215.spe",716,6.79,0.018341,-0.022175,0.007417,0.110437,126,62,10,2.63135e+15,"E"
1965,1.34,49625,19884,TRUE,0,8,19,13,33,112,128,41,317,48,0,28,19,2161,13,167,124,0,0,130,2594,0,512,0,724,0,10,0,15,199,162,0,24,9,0,182,259,111,36032,5431,"C:\Data\BAS_sjro\Oct_2017\Hermite\HER42-PB\H42-PB1E_XRF\XRF data\L000355.spe",856,6.77,0.018355,-0.022175,0.007348,0.110437,0,29,16,0,"E"
2057,1.41,47919,18834,TRUE,0,10,0,10,16,139,103,48,235,65,6,18,46,3482,99,212,124,10,0,104,2653,171,837,0,746,0,0,0,31,246,203,0,0,9,0,171,82,14,32512,5443,"C:\Data\BAS_sjro\Oct_2017\Hermite\HER42-PB\H42-PB1F_XRF\XRF data\L000047.spe",1058,7.05,0.018366,-0.022175,0.007652,0.110437,74,11,5,0,"F"
2175,1.45,52172,19411,TRUE,0,0,28,11,30,160,125,60,374,135,18,19,111,6246,21,194,87,0,0,0,2764,175,828,0,647,0,0,0,0,211,239,0,0,0,0,108,54,87,33692,5748,"C:\Data\BAS_sjro\Oct_2017\Hermite\HER42-PB\H42-PB1F_XRF\XRF data\L000165.spe",1176,7.05,0.018366,-0.022175,0.007753,0.110437,0,93,12,0,"F"
2315,1.37,50042,19524,TRUE,0,0,0,26,35,110,95,39,345,111,13,0,38,4325,51,208,187,7,0,0,3158,115,620,0,703,0,0,0,0,215,264,0,0,0,0,0,0,0,33886,5491,"C:\Data\BAS_sjro\Oct_2017\Hermite\HER42-PB\H42-PB1F_XRF\XRF data\L000305.spe",1316,6.98,0.018366,-0.022175,0.007543,0.110437,0,33,0,0,"F"
2432,1.48,49062,18123,TRUE,0,12,15,13,59,156,112,37,349,99,10,25,67,7183,62,221,99,0,0,35,1913,189,734,0,712,0,0,0,4,217,348,0,0,0,0,327,135,0,30620,5309,"C:\Data\BAS_sjro\Oct_2017\Hermite\HER42-PB\H42-PB1G_XRF\XRF data\L000022.spe",33,6.69,0.018355,-0.022175,0.007548,0.110437,0,110,0,3.98422e+15,"G"
2535,1.22,50856,20810,TRUE,0,0,30,0,44,132,84,41,270,79,14,26,27,2290,133,99,99,0,0,52,2299,0,498,0,596,0,0,0,0,246,231,0,0,13,0,48,111,20,37523,5840,"C:\Data\BAS_sjro\Oct_2017\Hermite\HER42-PB\H42-PB1G_XRF\XRF data\L000125.spe",136,6.6,0.018339,-0.022175,0.007468,0.110437,11,0,28,0,"G"
2675,1.18,51029,20485,TRUE,0,26,0,22,44,119,92,29,215,30,0,4,38,985,80,215,152,0,0,0,3204,47,457,0,765,0,9,0,21,218,238,0,40,84,0,132,104,13,37541,6083,"C:\Data\BAS_sjro\Oct_2017\Hermite\HER42-PB\H42-PB1G_XRF\XRF data\L000265.spe",276,6.71,0.018334,-0.022175,0.007472,0.110437,22,16,16,4.02747e+14,"G"
2812,1.37,49378,19900,TRUE,6,19,0,5,60,143,85,40,428,122,12,28,74,4130,84,174,166,0,0,0,2288,40,481,0,840,8,0,5,0,153,287,0,41,0,0,95,58,51,33929,5428,"C:\Data\BAS_sjro\Oct_2017\Hermite\HER42-PB\H42-PB1H_XRF\XRF data\L000002.spe",513,6.9,0.018365,-0.022175,0.007089,0.110437,98,0,0,2.26097e+15,"H"
2885,1.35,53438,21562,TRUE,31,0,0,5,34,165,86,21,252,19,17,20,49,2954,142,159,146,0,0,0,2730,94,514,0,929,0,0,0,0,174,272,0,7,0,0,90,62,0,38253,6154,"C:\Data\BAS_sjro\Oct_2017\Hermite\HER42-PB\H42-PB1H_XRF\XRF data\L000075.spe",586,6.78,0.018356,-0.022175,0.007705,0.110437,59,0,5,1.20299e+14,"H"
3025,1.46,52228,21118,TRUE,4,16,18,0,35,98,105,16,260,39,0,12,34,2087,151,235,114,0,0,14,2772,33,337,0,807,0,0,5,0,189,249,0,0,0,0,0,0,0,38581,5987,"C:\Data\BAS_sjro\Oct_2017\Hermite\HER42-PB\H42-PB1H_XRF\XRF data\L000215.spe",726,6.87,0.018339,-0.022175,0.007628,0.110437,30,0,17,0,"H"
3165,1.28,53607,20371,TRUE,11,8,6,8,48,141,66,56,368,74,23,0,86,6281,165,206,186,0,0,45,2360,42,602,0,762,0,0,0,0,185,286,0,58,58,0,92,72,0,35277,5948,"C:\Data\BAS_sjro\Oct_2017\Hermite\HER42-PB\H42-PB1H_XRF\XRF data\L000355.spe",866,6.56,0.018345,-0.022175,0.007637,0.110437,87,0,23,1.61374e+15,"H"
3257,1.23,54179,20879,TRUE,32,35,12,7,66,132,92,40,501,94,0,24,80,5250,91,169,128,0,0,0,3172,15,707,0,666,0,0,0,0,188,276,0,129,0,0,20,18,0,36174,6015,"C:\Data\BAS_sjro\Oct_2017\Hermite\HER42-PB\H42-PB1I_XRF\XRF data\L000047.spe",1058,6.88,0.018349,-0.022175,0.007396,0.110437,46,38,36,9.53431e+14,"I"
3380,1.25,55147,22084,TRUE,0,10,4,18,38,158,98,18,255,25,14,29,47,2892,44,213,26,0,0,101,3126,14,336,0,968,0,0,0,0,308,278,0,11,0,0,24,0,0,39771,6321,"C:\Data\BAS_sjro\Oct_2017\Hermite\HER42-PB\H42-PB1I_XRF\XRF data\L000170.spe",1181,6.91,0.01835,-0.022175,0.007379,0.110437,0,50,9,0,"I"
3520,1.35,51793,20798,TRUE,14,38,0,21,49,126,74,62,412,90,0,0,43,3929,158,196,141,7,0,116,2702,0,672,0,714,0,0,0,0,244,252,24,0,0,0,0,16,0,35558,6135,"C:\Data\BAS_sjro\Oct_2017\Hermite\HER42-PB\H42-PB1I_XRF\XRF data\L000310.spe",1321,6.83,0.018339,-0.022175,0.007309,0.110437,0,5,4,0,"I"
3610,1.17,52612,20330,TRUE,15,24,26,8,66,139,83,61,490,159,21,10,80,5355,136,182,94,0,0,168,2641,71,821,0,1130,0,0,0,0,301,267,0,13,27,0,192,31,0,33897,6039,"C:\Data\BAS_sjro\Oct_2017\Hermite\HER42-PB\H42-PB1I_XRF\XRF data\L000400.spe",1411,6.91,0.018346,-0.022175,0.007449,0.110437,65,19,16,2.12312e+14,"I"
3685,1.31,49090,17160,TRUE,0,25,38,0,56,126,78,115,671,247,23,7,181,10540,150,161,75,0,0,139,1747,187,1225,0,485,0,0,0,0,138,202,0,17,44,26,154,186,40,26981,5026,"C:\Data\BAS_sjro\Oct_2017\Hermite\HER42-PB\H42-1J_XRF\XRF data\L000125.spe",136,6.5,0.018352,-0.022175,0.007293,0.110437,0,43,13,0,"J"
3825,1.34,51256,19648,TRUE,33,37,9,0,58,94,107,61,320,56,22,9,36,5426,106,166,68,0,0,73,3010,0,407,0,695,0,6,0,0,275,247,0,0,0,0,160,20,0,34225,5460,"C:\Data\BAS_sjro\Oct_2017\Hermite\HER42-PB\H42-1J_XRF\XRF data\L000265.spe",276,6.64,0.018354,-0.022175,0.007298,0.110437,70,45,14,0,"J"
3965,1.41,49377,18075,TRUE,9,15,30,38,30,102,128,57,487,110,20,24,151,6823,92,212,55,0,0,14,2172,180,1033,0,638,0,0,0,21,196,255,4,29,0,0,98,116,0,30758,5480,"C:\Data\BAS_sjro\Oct_2017\Hermite\HER42-PB\H42-1J_XRF\XRF data\L000405.spe",416,6.69,0.018356,-0.022175,0.007343,0.110437,0,51,27,9.38189e+14,"J"
4029,1.37,57516,21026,TRUE,40,27,17,0,56,118,118,62,482,163,13,0,63,8382,110,191,111,0,0,131,2701,220,929,0,915,0,0,0,0,168,192,0,0,0,0,124,96,88,36316,5627,"C:\Data\BAS_sjro\Oct_2017\Hermite\HER42-PB\H42-1J_XRF\XRF data\L000469.spe",480,6.8,0.018363,-0.022175,0.007135,0.110437,56,0,15,0,"J"